File: Week 05/concrete_data.csv
Date,Cement (kg/m^3),Blast Furnace Slag (kg/m^3),Fly Ash (kg/m^3),Water (kg/m^3),Superplasticizer (kg/m^3),Coarse Aggregate (kg/m^3),Fine Aggregate (kg/m^3),Concrete compressive strength (MPa)
9/29/2024,540,0,0,162,2.5,1040,676,79.99
9/29/2024,540,0,0,162,2.5,1055,676,61.89
1/31/2024,332.5,142.5,0,228,0,932,594,40.27
10/28/2023,332.5,142.5,0,228,0,932,594,41.05
11/2/2023,198.6,132.4,0,192,0,978.4,825.5,44.3
7/29/2024,266,114,0,228,0,932,670,47.03
10/28/2023,380,95,0,228,0,932,594,43.7
9/29/2024,380,95,0,228,0,932,594,36.45
9/29/2024,266,114,0,228,0,932,670,45.85
9/29/2024,475,0,0,228,0,932,594,39.29
7/29/2024,198.6,132.4,0,192,0,978.4,825.5,38.07
9/29/2024,198.6,132.4,0,192,0,978.4,825.5,28.02
1/31/2024,427.5,47.5,0,228,0,932,594,43.01
7/29/2024,190,190,0,228,0,932,670,42.33
9/29/2024,304,76,0,228,0,932,670,47.81
7/29/2024,380,0,0,228,0,932,670,52.91
7/29/2024,139.6,209.4,0,192,0,1047,806.9,39.36
10/28/2023,342,38,0,228,0,932,670,56.14
7/29/2024,380,95,0,228,0,932,594,40.56
4/30/2024,475,0,0,228,0,932,594,42.62
4/30/2024,427.5,47.5,0,228,0,932,594,41.84
9/29/2024,139.6,209.4,0,192,0,1047,806.9,28.24
10/24/2024,139.6,209.4,0,192,0,1047,806.9,8.06
4/30/2024,139.6,209.4,0,192,0,1047,806.9,44.21
10/28/2023,380,0,0,228,0,932,670,52.52
1/31/2024,380,0,0,228,0,932,670,53.3
1/31/2024,380,95,0,228,0,932,594,41.15
4/30/2024,342,38,0,228,0,932,670,52.12
9/29/2024,427.5,47.5,0,228,0,932,594,37.43
10/20/2024,475,0,0,228,0,932,594,38.6
10/28/2023,304,76,0,228,0,932,670,55.26
10/28/2023,266,114,0,228,0,932,670,52.91
4/30/2024,198.6,132.4,0,192,0,978.4,825.5,41.72
1/31/2024,475,0,0,228,0,932,594,42.13
10/28/2023,190,190,0,228,0,932,670,53.69
1/31/2024,237.5,237.5,0,228,0,932,594,38.41
9/29/2024,237.5,237.5,0,228,0,932,594,30.08
7/29/2024,332.5,142.5,0,228,0,932,594,37.72
7/29/2024,475,0,0,228,0,932,594,42.23
4/30/2024,237.5,237.5,0,228,0,932,594,36.25
7/29/2024,342,38,0,228,0,932,670,50.46
10/28/2023,427.5,47.5,0,228,0,932,594,43.7
10/28/2023,237.5,237.5,0,228,0,932,594,39
4/30/2024,380,0,0,228,0,932,670,53.1
7/29/2024,427.5,47.5,0,228,0,932,594,41.54
10/20/2024,427.5,47.5,0,228,0,932,594,35.08
10/24/2024,349,0,0,192,0,1047,806.9,15.05
4/30/2024,380,95,0,228,0,932,594,40.76
10/20/2024,237.5,237.5,0,228,0,932,594,26.26
10/20/2024,380,95,0,228,0,932,594,32.82
4/30/2024,332.5,142.5,0,228,0,932,594,39.78
4/30/2024,190,190,0,228,0,932,670,46.93
7/29/2024,237.5,237.5,0,228,0,932,594,33.12
7/29/2024,304,76,0,228,0,932,670,49.19
10/20/2024,139.6,209.4,0,192,0,1047,806.9,14.59
10/20/2024,198.6,132.4,0,192,0,978.4,825.5,14.64
10/28/2023,475,0,0,228,0,932,594,41.93
10/24/2024,198.6,132.4,0,192,0,978.4,825.5,9.13
4/30/2024,304,76,0,228,0,932,670,50.95
9/29/2024,332.5,142.5,0,228,0,932,594,33.02
1/31/2024,304,76,0,228,0,932,670,54.38
1/31/2024,266,114,0,228,0,932,670,51.73
10/24/2024,310,0,0,192,0,971,850.6,9.87
1/31/2024,190,190,0,228,0,932,670,50.66
4/30/2024,266,114,0,228,0,932,670,48.7
1/31/2024,342,38,0,228,0,932,670,55.06
11/2/2023,139.6,209.4,0,192,0,1047,806.9,44.7
10/20/2024,332.5,142.5,0,228,0,932,594,30.28
9/29/2024,190,190,0,228,0,932,670,40.86
9/29/2024,485,0,0,146,0,1120,800,71.99
10/24/2024,374,189.2,0,170.1,10.1,926.1,756.7,34.4
10/24/2024,313.3,262.2,0,175.5,8.6,1046.9,611.8,28.8
10/24/2024,425,106.3,0,153.5,16.5,852.1,887.1,33.4
10/24/2024,425,106.3,0,151.4,18.6,936,803.7,36.3
10/24/2024,375,93.8,0,126.6,23.4,852.1,992.6,29
10/24/2024,475,118.8,0,181.1,8.9,852.1,781.5,37.8
10/24/2024,469,117.2,0,137.8,32.2,852.1,840.5,40.2
10/24/2024,425,106.3,0,153.5,16.5,852.1,887.1,33.4
10/24/2024,388.6,97.1,0,157.9,12.1,852.1,925.7,28.1
10/24/2024,531.3,0,0,141.8,28.2,852.1,893.7,41.3
10/24/2024,425,106.3,0,153.5,16.5,852.1,887.1,33.4
10/24/2024,318.8,212.5,0,155.7,14.3,852.1,880.4,25.2
10/24/2024,401.8,94.7,0,147.4,11.4,946.8,852.1,41.1
10/24/2024,362.6,189,0,164.9,11.6,944.7,755.8,35.3
10/24/2024,323.7,282.8,0,183.8,10.3,942.7,659.9,28.3
10/24/2024,379.5,151.2,0,153.9,15.9,1134.3,605,28.6
10/24/2024,362.6,189,0,164.9,11.6,944.7,755.8,35.3
10/24/2024,286.3,200.9,0,144.7,11.2,1004.6,803.7,24.4
10/24/2024,362.6,189,0,164.9,11.6,944.7,755.8,35.3
10/24/2024,439,177,0,186,11.1,884.9,707.9,39.3
10/24/2024,389.9,189,0,145.9,22,944.7,755.8,40.6
10/24/2024,362.6,189,0,164.9,11.6,944.7,755.8,35.3
10/24/2024,337.9,189,0,174.9,9.5,944.7,755.8,24.1
10/20/2024,374,189.2,0,170.1,10.1,926.1,756.7,46.2
10/20/2024,313.3,262.2,0,175.5,8.6,1046.9,611.8,42.8
10/20/2024,425,106.3,0,153.5,16.5,852.1,887.1,49.2
10/20/2024,425,106.3,0,151.4,18.6,936,803.7,46.8
10/20/2024,375,93.8,0,126.6,23.4,852.1,992.6,45.7
10/20/2024,475,118.8,0,181.1,8.9,852.1,781.5,55.6
10/20/2024,469,117.2,0,137.8,32.2,852.1,840.5,54.9
10/20/2024,425,106.3,0,153.5,16.5,852.1,887.1,49.2
10/20/2024,388.6,97.1,0,157.9,12.1,852.1,925.7,34.9
10/20/2024,531.3,0,0,141.8,28.2,852.1,893.7,46.9
10/20/2024,425,106.3,0,153.5,16.5,852.1,887.1,49.2
10/20/2024,318.8,212.5,0,155.7,14.3,852.1,880.4,33.4
10/20/2024,401.8,94.7,0,147.4,11.4,946.8,852.1,54.1
10/20/2024,362.6,189,0,164.9,11.6,944.7,755.8,55.9
10/20/2024,323.7,282.8,0,183.8,10.3,942.7,659.9,49.8
10/20/2024,379.5,151.2,0,153.9,15.9,1134.3,605,47.1
10/20/2024,362.6,189,0,164.9,11.6,944.7,755.8,55.9
10/20/2024,286.3,200.9,0,144.7,11.2,1004.6,803.7,38
10/20/2024,362.6,189,0,164.9,11.6,944.7,755.8,55.9
10/20/2024,439,177,0,186,11.1,884.9,707.9,56.1
10/20/2024,389.9,189,0,145.9,22,944.7,755.8,59.09
10/20/2024,362.6,189,0,164.9,11.6,944.7,755.8,22.9
10/20/2024,337.9,189,0,174.9,9.5,944.7,755.8,35.1
9/29/2024,374,189.2,0,170.1,10.1,926.1,756.7,61.09
9/29/2024,313.3,262.2,0,175.5,8.6,1046.9,611.8,59.8
9/29/2024,425,106.3,0,153.5,16.5,852.1,887.1,60.29
9/29/2024,425,106.3,0,151.4,18.6,936,803.7,61.8
9/29/2024,375,93.8,0,126.6,23.4,852.1,992.6,56.7
9/29/2024,475,118.8,0,181.1,8.9,852.1,781.5,68.3
9/29/2024,469,117.2,0,137.8,32.2,852.1,840.5,66.9
9/29/2024,425,106.3,0,153.5,16.5,852.1,887.1,60.29
9/29/2024,388.6,97.1,0,157.9,12.1,852.1,925.7,50.7
9/29/2024,531.3,0,0,141.8,28.2,852.1,893.7,56.4
9/29/2024,425,106.3,0,153.5,16.5,852.1,887.1,60.29
9/29/2024,318.8,212.5,0,155.7,14.3,852.1,880.4,55.5
9/29/2024,401.8,94.7,0,147.4,11.4,946.8,852.1,68.5
9/29/2024,362.6,189,0,164.9,11.6,944.7,755.8,71.3
9/29/2024,323.7,282.8,0,183.8,10.3,942.7,659.9,74.7
9/29/2024,379.5,151.2,0,153.9,15.9,1134.3,605,52.2
9/29/2024,362.6,189,0,164.9,11.6,944.7,755.8,71.3
9/29/2024,286.3,200.9,0,144.7,11.2,1004.6,803.7,67.7
9/29/2024,362.6,189,0,164.9,11.6,944.7,755.8,71.3
9/29/2024,439,177,0,186,11.1,884.9,707.9,66
9/29/2024,389.9,189,0,145.9,22,944.7,755.8,74.5
9/29/2024,362.6,189,0,164.9,11.6,944.7,755.8,71.3
9/29/2024,337.9,189,0,174.9,9.5,944.7,755.8,49.9
9/1/2024,374,189.2,0,170.1,10.1,926.1,756.7,63.4
9/1/2024,313.3,262.2,0,175.5,8.6,1046.9,611.8,64.9
9/1/2024,425,106.3,0,153.5,16.5,852.1,887.1,64.3
9/1/2024,425,106.3,0,151.4,18.6,936,803.7,64.9
9/1/2024,375,93.8,0,126.6,23.4,852.1,992.6,60.2
9/1/2024,475,118.8,0,181.1,8.9,852.1,781.5,72.3
9/1/2024,469,117.2,0,137.8,32.2,852.1,840.5,69.3
9/1/2024,425,106.3,0,153.5,16.5,852.1,887.1,64.3
9/1/2024,388.6,97.1,0,157.9,12.1,852.1,925.7,55.2
9/1/2024,531.3,0,0,141.8,28.2,852.1,893.7,58.8
9/1/2024,425,106.3,0,153.5,16.5,852.1,887.1,64.3
9/1/2024,318.8,212.5,0,155.7,14.3,852.1,880.4,66.1
9/1/2024,401.8,94.7,0,147.4,11.4,946.8,852.1,73.7
9/1/2024,362.6,189,0,164.9,11.6,944.7,755.8,77.3
9/1/2024,323.7,282.8,0,183.8,10.3,942.7,659.9,80.2
9/1/2024,379.5,151.2,0,153.9,15.9,1134.3,605,54.9
9/1/2024,362.6,189,0,164.9,11.6,944.7,755.8,77.3
9/1/2024,286.3,200.9,0,144.7,11.2,1004.6,803.7,72.99
9/1/2024,362.6,189,0,164.9,11.6,944.7,755.8,77.3
9/1/2024,439,177,0,186,11.1,884.9,707.9,71.7
9/1/2024,389.9,189,0,145.9,22,944.7,755.8,79.4
9/1/2024,362.6,189,0,164.9,11.6,944.7,755.8,77.3
9/1/2024,337.9,189,0,174.9,9.5,944.7,755.8,59.89
7/28/2024,374,189.2,0,170.1,10.1,926.1,756.7,64.9
7/28/2024,313.3,262.2,0,175.5,8.6,1046.9,611.8,66.6
7/28/2024,425,106.3,0,153.5,16.5,852.1,887.1,65.2
7/28/2024,425,106.3,0,151.4,18.6,936,803.7,66.7
7/28/2024,375,93.8,0,126.6,23.4,852.1,992.6,62.5
7/28/2024,475,118.8,0,181.1,8.9,852.1,781.5,74.19
7/28/2024,469,117.2,0,137.8,32.2,852.1,840.5,70.7
7/28/2024,425,106.3,0,153.5,16.5,852.1,887.1,65.2
7/28/2024,388.6,97.1,0,157.9,12.1,852.1,925.7,57.6
7/28/2024,531.3,0,0,141.8,28.2,852.1,893.7,59.2
7/28/2024,425,106.3,0,153.5,16.5,852.1,887.1,65.2
7/28/2024,318.8,212.5,0,155.7,14.3,852.1,880.4,68.1
7/28/2024,401.8,94.7,0,147.4,11.4,946.8,852.1,75.5
7/28/2024,362.6,189,0,164.9,11.6,944.7,755.8,79.3
7/28/2024,379.5,151.2,0,153.9,15.9,1134.3,605,56.5
7/28/2024,362.6,189,0,164.9,11.6,944.7,755.8,79.3
7/28/2024,286.3,200.9,0,144.7,11.2,1004.6,803.7,76.8
7/28/2024,362.6,189,0,164.9,11.6,944.7,755.8,79.3
7/28/2024,439,177,0,186,11.1,884.9,707.9,73.3
7/28/2024,389.9,189,0,145.9,22,944.7,755.8,82.6
7/28/2024,362.6,189,0,164.9,11.6,944.7,755.8,79.3
7/28/2024,337.9,189,0,174.9,9.5,944.7,755.8,67.8
10/24/2024,222.4,0,96.7,189.3,4.5,967.1,870.3,11.58
10/13/2024,222.4,0,96.7,189.3,4.5,967.1,870.3,24.45
9/29/2024,222.4,0,96.7,189.3,4.5,967.1,870.3,24.89
9/1/2024,222.4,0,96.7,189.3,4.5,967.1,870.3,29.45
7/19/2024,222.4,0,96.7,189.3,4.5,967.1,870.3,40.71
10/24/2024,233.8,0,94.6,197.9,4.6,947,852.2,10.38
10/13/2024,233.8,0,94.6,197.9,4.6,947,852.2,22.14
9/29/2024,233.8,0,94.6,197.9,4.6,947,852.2,22.84
9/1/2024,233.8,0,94.6,197.9,4.6,947,852.2,27.66
7/19/2024,233.8,0,94.6,197.9,4.6,947,852.2,34.56
10/24/2024,194.7,0,100.5,165.6,7.5,1006.4,905.9,12.45
10/13/2024,194.7,0,100.5,165.6,7.5,1006.4,905.9,24.99
9/29/2024,194.7,0,100.5,165.6,7.5,1006.4,905.9,25.72
9/1/2024,194.7,0,100.5,165.6,7.5,1006.4,905.9,33.96
7/19/2024,194.7,0,100.5,165.6,7.5,1006.4,905.9,37.34
10/24/2024,190.7,0,125.4,162.1,7.8,1090,804,15.04
10/13/2024,190.7,0,125.4,162.1,7.8,1090,804,21.06
9/29/2024,190.7,0,125.4,162.1,7.8,1090,804,26.4
9/1/2024,190.7,0,125.4,162.1,7.8,1090,804,35.34
7/19/2024,190.7,0,125.4,162.1,7.8,1090,804,40.57
10/24/2024,212.1,0,121.6,180.3,5.7,1057.6,779.3,12.47
10/13/2024,212.1,0,121.6,180.3,5.7,1057.6,779.3,20.92
9/29/2024,212.1,0,121.6,180.3,5.7,1057.6,779.3,24.9
9/1/2024,212.1,0,121.6,180.3,5.7,1057.6,779.3,34.2
7/19/2024,212.1,0,121.6,180.3,5.7,1057.6,779.3,39.61
10/24/2024,230,0,118.3,195.5,4.6,1029.4,758.6,10.03
10/13/2024,230,0,118.3,195.5,4.6,1029.4,758.6,20.08
9/29/2024,230,0,118.3,195.5,4.6,1029.4,758.6,24.48
9/1/2024,230,0,118.3,195.5,4.6,1029.4,758.6,31.54
7/19/2024,230,0,118.3,195.5,4.6,1029.4,758.6,35.34
10/24/2024,190.3,0,125.2,161.9,9.9,1088.1,802.6,9.45
10/13/2024,190.3,0,125.2,161.9,9.9,1088.1,802.6,22.72
9/29/2024,190.3,0,125.2,161.9,9.9,1088.1,802.6,28.47
9/1/2024,190.3,0,125.2,161.9,9.9,1088.1,802.6,38.56
7/19/2024,190.3,0,125.2,161.9,9.9,1088.1,802.6,40.39
10/24/2024,166.1,0,163.3,176.5,4.5,1058.6,780.1,10.76
10/13/2024,166.1,0,163.3,176.5,4.5,1058.6,780.1,25.48
9/29/2024,166.1,0,163.3,176.5,4.5,1058.6,780.1,21.54
9/1/2024,166.1,0,163.3,176.5,4.5,1058.6,780.1,28.63
7/19/2024,166.1,0,163.3,176.5,4.5,1058.6,780.1,33.54
10/24/2024,168,42.1,163.8,121.8,5.7,1058.7,780.1,7.75
10/13/2024,168,42.1,163.8,121.8,5.7,1058.7,780.1,17.82
9/29/2024,168,42.1,163.8,121.8,5.7,1058.7,780.1,24.24
9/1/2024,168,42.1,163.8,121.8,5.7,1058.7,780.1,32.85
7/19/2024,168,42.1,163.8,121.8,5.7,1058.7,780.1,39.23
10/24/2024,213.7,98.1,24.5,181.7,6.9,1065.8,785.4,18
10/13/2024,213.7,98.1,24.5,181.7,6.9,1065.8,785.4,30.39
9/29/2024,213.7,98.1,24.5,181.7,6.9,1065.8,785.4,45.71
9/1/2024,213.7,98.1,24.5,181.7,6.9,1065.8,785.4,50.77
7/19/2024,213.7,98.1,24.5,181.7,6.9,1065.8,785.4,53.9
10/24/2024,213.8,98.1,24.5,181.7,6.7,1066,785.5,13.18
10/13/2024,213.8,98.1,24.5,181.7,6.7,1066,785.5,17.84
9/29/2024,213.8,98.1,24.5,181.7,6.7,1066,785.5,40.23
9/1/2024,213.8,98.1,24.5,181.7,6.7,1066,785.5,47.13
7/19/2024,213.8,98.1,24.5,181.7,6.7,1066,785.5,49.97
10/24/2024,229.7,0,118.2,195.2,6.1,1028.1,757.6,13.36
10/13/2024,229.7,0,118.2,195.2,6.1,1028.1,757.6,22.32
9/29/2024,229.7,0,118.2,195.2,6.1,1028.1,757.6,24.54
9/1/2024,229.7,0,118.2,195.2,6.1,1028.1,757.6,31.35
7/19/2024,229.7,0,118.2,195.2,6.1,1028.1,757.6,40.86
10/24/2024,238.1,0,94.1,186.7,7,949.9,847,19.93
10/13/2024,238.1,0,94.1,186.7,7,949.9,847,25.69
9/29/2024,238.1,0,94.1,186.7,7,949.9,847,30.23
9/1/2024,238.1,0,94.1,186.7,7,949.9,847,39.59
7/19/2024,238.1,0,94.1,186.7,7,949.9,847,44.3
10/24/2024,250,0,95.7,187.4,5.5,956.9,861.2,13.82
10/13/2024,250,0,95.7,187.4,5.5,956.9,861.2,24.92
9/29/2024,250,0,95.7,187.4,5.5,956.9,861.2,29.22
9/1/2024,250,0,95.7,187.4,5.5,956.9,861.2,38.33
7/19/2024,250,0,95.7,187.4,5.5,956.9,861.2,42.35
10/24/2024,212.5,0,100.4,159.3,8.7,1007.8,903.6,13.54
10/13/2024,212.5,0,100.4,159.3,8.7,1007.8,903.6,26.31
9/29/2024,212.5,0,100.4,159.3,8.7,1007.8,903.6,31.64
9/1/2024,212.5,0,100.4,159.3,8.7,1007.8,903.6,42.55
7/19/2024,212.5,0,100.4,159.3,8.7,1007.8,903.6,42.92
10/24/2024,212.6,0,100.4,159.4,10.4,1003.8,903.8,13.33
10/13/2024,212.6,0,100.4,159.4,10.4,1003.8,903.8,25.37
9/29/2024,212.6,0,100.4,159.4,10.4,1003.8,903.8,37.4
9/1/2024,212.6,0,100.4,159.4,10.4,1003.8,903.8,44.4
7/19/2024,212.6,0,100.4,159.4,10.4,1003.8,903.8,47.74
10/24/2024,212,0,124.8,159,7.8,1085.4,799.5,19.52
10/13/2024,212,0,124.8,159,7.8,1085.4,799.5,31.35
9/29/2024,212,0,124.8,159,7.8,1085.4,799.5,38.5
9/1/2024,212,0,124.8,159,7.8,1085.4,799.5,45.08
7/19/2024,212,0,124.8,159,7.8,1085.4,799.5,47.82
10/24/2024,231.8,0,121.6,174,6.7,1056.4,778.5,15.44
10/13/2024,231.8,0,121.6,174,6.7,1056.4,778.5,26.77
9/29/2024,231.8,0,121.6,174,6.7,1056.4,778.5,33.73
9/1/2024,231.8,0,121.6,174,6.7,1056.4,778.5,42.7
7/19/2024,231.8,0,121.6,174,6.7,1056.4,778.5,45.84
10/24/2024,251.4,0,118.3,188.5,5.8,1028.4,757.7,17.22
10/13/2024,251.4,0,118.3,188.5,5.8,1028.4,757.7,29.93
9/29/2024,251.4,0,118.3,188.5,5.8,1028.4,757.7,29.65
9/1/2024,251.4,0,118.3,188.5,5.8,1028.4,757.7,36.97
7/19/2024,251.4,0,118.3,188.5,5.8,1028.4,757.7,43.58
10/24/2024,251.4,0,118.3,188.5,6.4,1028.4,757.7,13.12
10/13/2024,251.4,0,118.3,188.5,6.4,1028.4,757.7,24.43
9/29/2024,251.4,0,118.3,188.5,6.4,1028.4,757.7,32.66
9/1/2024,251.4,0,118.3,188.5,6.4,1028.4,757.7,36.64
7/19/2024,251.4,0,118.3,188.5,6.4,1028.4,757.7,44.21
10/24/2024,181.4,0,167,169.6,7.6,1055.6,777.8,13.62
10/13/2024,181.4,0,167,169.6,7.6,1055.6,777.8,21.6
9/29/2024,181.4,0,167,169.6,7.6,1055.6,777.8,27.77
9/1/2024,181.4,0,167,169.6,7.6,1055.6,777.8,35.57
7/19/2024,181.4,0,167,169.6,7.6,1055.6,777.8,45.37
10/24/2024,182,45.2,122,170.2,8.2,1059.4,780.7,7.32
10/13/2024,182,45.2,122,170.2,8.2,1059.4,780.7,21.5
9/29/2024,182,45.2,122,170.2,8.2,1059.4,780.7,31.27
9/1/2024,182,45.2,122,170.2,8.2,1059.4,780.7,43.5
7/19/2024,182,45.2,122,170.2,8.2,1059.4,780.7,48.67
10/24/2024,168.9,42.2,124.3,158.3,10.8,1080.8,796.2,7.4
10/13/2024,168.9,42.2,124.3,158.3,10.8,1080.8,796.2,23.51
9/29/2024,168.9,42.2,124.3,158.3,10.8,1080.8,796.2,31.12
9/1/2024,168.9,42.2,124.3,158.3,10.8,1080.8,796.2,39.15
7/19/2024,168.9,42.2,124.3,158.3,10.8,1080.8,796.2,48.15
10/24/2024,290.4,0,96.2,168.1,9.4,961.2,865,22.5
10/13/2024,290.4,0,96.2,168.1,9.4,961.2,865,34.67
9/29/2024,290.4,0,96.2,168.1,9.4,961.2,865,34.74
9/1/2024,290.4,0,96.2,168.1,9.4,961.2,865,45.08
7/19/2024,290.4,0,96.2,168.1,9.4,961.2,865,48.97
10/24/2024,277.1,0,97.4,160.6,11.8,973.9,875.6,23.14
10/13/2024,277.1,0,97.4,160.6,11.8,973.9,875.6,41.89
9/29/2024,277.1,0,97.4,160.6,11.8,973.9,875.6,48.28
9/1/2024,277.1,0,97.4,160.6,11.8,973.9,875.6,51.04
7/19/2024,277.1,0,97.4,160.6,11.8,973.9,875.6,55.64
10/24/2024,295.7,0,95.6,171.5,8.9,955.1,859.2,22.95
10/13/2024,295.7,0,95.6,171.5,8.9,955.1,859.2,35.23
9/29/2024,295.7,0,95.6,171.5,8.9,955.1,859.2,39.94
9/1/2024,295.7,0,95.6,171.5,8.9,955.1,859.2,48.72
7/19/2024,295.7,0,95.6,171.5,8.9,955.1,859.2,52.04
10/24/2024,251.8,0,99.9,146.1,12.4,1006,899.8,21.02
10/13/2024,251.8,0,99.9,146.1,12.4,1006,899.8,33.36
9/29/2024,251.8,0,99.9,146.1,12.4,1006,899.8,33.94
9/1/2024,251.8,0,99.9,146.1,12.4,1006,899.8,44.14
7/19/2024,251.8,0,99.9,146.1,12.4,1006,899.8,45.37
10/24/2024,249.1,0,98.8,158.1,12.8,987.8,889,15.36
10/13/2024,249.1,0,98.8,158.1,12.8,987.8,889,28.68
9/29/2024,249.1,0,98.8,158.1,12.8,987.8,889,30.85
9/1/2024,249.1,0,98.8,158.1,12.8,987.8,889,42.03
7/19/2024,249.1,0,98.8,158.1,12.8,987.8,889,51.06
10/24/2024,252.3,0,98.8,146.3,14.2,987.8,889,21.78
10/13/2024,252.3,0,98.8,146.3,14.2,987.8,889,42.29
9/29/2024,252.3,0,98.8,146.3,14.2,987.8,889,50.6
9/1/2024,252.3,0,98.8,146.3,14.2,987.8,889,55.83
7/19/2024,252.3,0,98.8,146.3,14.2,987.8,889,60.95
10/24/2024,246.8,0,125.1,143.3,12,1086.8,800.9,23.52
10/13/2024,246.8,0,125.1,143.3,12,1086.8,800.9,42.22
9/29/2024,246.8,0,125.1,143.3,12,1086.8,800.9,52.5
9/1/2024,246.8,0,125.1,143.3,12,1086.8,800.9,60.32
7/19/2024,246.8,0,125.1,143.3,12,1086.8,800.9,66.42
10/24/2024,275.1,0,121.4,159.5,9.9,1053.6,777.5,23.8
10/13/2024,275.1,0,121.4,159.5,9.9,1053.6,777.5,38.77
9/29/2024,275.1,0,121.4,159.5,9.9,1053.6,777.5,51.33
9/1/2024,275.1,0,121.4,159.5,9.9,1053.6,777.5,56.85
7/19/2024,275.1,0,121.4,159.5,9.9,1053.6,777.5,58.61
10/24/2024,297.2,0,117.5,174.8,9.5,1022.8,753.5,21.91
10/13/2024,297.2,0,117.5,174.8,9.5,1022.8,753.5,36.99
9/29/2024,297.2,0,117.5,174.8,9.5,1022.8,753.5,47.4
9/1/2024,297.2,0,117.5,174.8,9.5,1022.8,753.5,51.96
7/19/2024,297.2,0,117.5,174.8,9.5,1022.8,753.5,56.74
10/24/2024,213.7,0,174.7,154.8,10.2,1053.5,776.4,17.57
10/13/2024,213.7,0,174.7,154.8,10.2,1053.5,776.4,33.73
9/29/2024,213.7,0,174.7,154.8,10.2,1053.5,776.4,40.15
9/1/2024,213.7,0,174.7,154.8,10.2,1053.5,776.4,46.64
7/19/2024,213.7,0,174.7,154.8,10.2,1053.5,776.4,50.08
10/24/2024,213.5,0,174.2,154.6,11.7,1052.3,775.5,17.37
10/13/2024,213.5,0,174.2,154.6,11.7,1052.3,775.5,33.7
9/29/2024,213.5,0,174.2,154.6,11.7,1052.3,775.5,45.94
9/1/2024,213.5,0,174.2,154.6,11.7,1052.3,775.5,51.43
7/19/2024,213.5,0,174.2,154.6,11.7,1052.3,775.5,59.3
10/24/2024,277.2,97.8,24.5,160.7,11.2,1061.7,782.5,30.45
10/13/2024,277.2,97.8,24.5,160.7,11.2,1061.7,782.5,47.71
9/29/2024,277.2,97.8,24.5,160.7,11.2,1061.7,782.5,63.14
9/1/2024,277.2,97.8,24.5,160.7,11.2,1061.7,782.5,66.82
7/19/2024,277.2,97.8,24.5,160.7,11.2,1061.7,782.5,66.95
10/24/2024,218.2,54.6,123.8,140.8,11.9,1075.7,792.7,27.42
10/13/2024,218.2,54.6,123.8,140.8,11.9,1075.7,792.7,35.96
9/29/2024,218.2,54.6,123.8,140.8,11.9,1075.7,792.7,55.51
9/1/2024,218.2,54.6,123.8,140.8,11.9,1075.7,792.7,61.99
7/19/2024,218.2,54.6,123.8,140.8,11.9,1075.7,792.7,63.53
10/24/2024,214.9,53.8,121.9,155.6,9.6,1014.3,780.6,18.02
10/13/2024,214.9,53.8,121.9,155.6,9.6,1014.3,780.6,38.6
9/29/2024,214.9,53.8,121.9,155.6,9.6,1014.3,780.6,52.2
9/1/2024,214.9,53.8,121.9,155.6,9.6,1014.3,780.6,53.96
7/19/2024,214.9,53.8,121.9,155.6,9.6,1014.3,780.6,56.63
10/24/2024,218.9,0,124.1,158.5,11.3,1078.7,794.9,15.34
10/13/2024,218.9,0,124.1,158.5,11.3,1078.7,794.9,26.05
9/29/2024,218.9,0,124.1,158.5,11.3,1078.7,794.9,30.22
9/1/2024,218.9,0,124.1,158.5,11.3,1078.7,794.9,37.27
7/19/2024,218.9,0,124.1,158.5,11.3,1078.7,794.9,46.23
10/24/2024,376,0,0,214.6,0,1003.5,762.4,16.28
10/13/2024,376,0,0,214.6,0,1003.5,762.4,25.62
9/29/2024,376,0,0,214.6,0,1003.5,762.4,31.97
9/1/2024,376,0,0,214.6,0,1003.5,762.4,36.3
7/19/2024,376,0,0,214.6,0,1003.5,762.4,43.06
9/29/2024,500,0,0,140,4,966,853,67.57
9/29/2024,475,0,59,142,1.9,1098,641,57.23
9/29/2024,315,137,0,145,5.9,1130,745,81.75
9/29/2024,505,0,60,195,0,1030,630,64.02
9/29/2024,451,0,0,165,11.3,1030,745,78.8
9/29/2024,516,0,0,162,8.2,801,802,41.37
9/29/2024,520,0,0,170,5.2,855,855,60.28
9/29/2024,528,0,0,185,6.9,920,720,56.83
9/29/2024,520,0,0,175,5.2,870,805,51.02
9/29/2024,385,0,136,158,20,903,768,55.55
9/29/2024,500.1,0,0,200,3,1124.4,613.2,44.13
9/29/2024,450.1,50,0,200,3,1124.4,613.2,39.38
9/29/2024,397,17.2,158,167,20.8,967,633,55.65
9/29/2024,333,17.5,163,167,17.9,996,652,47.28
9/29/2024,334,17.6,158,189,15.3,967,633,44.33
9/29/2024,405,0,0,175,0,1120,695,52.3
9/29/2024,200,200,0,190,0,1145,660,49.25
9/29/2024,516,0,0,162,8.3,801,802,41.37
9/29/2024,145,116,119,184,5.7,833,880,29.16
9/29/2024,160,128,122,182,6.4,824,879,39.4
9/29/2024,234,156,0,189,5.9,981,760,39.3
9/29/2024,250,180,95,159,9.5,860,800,67.87
9/29/2024,475,0,0,162,9.5,1044,662,58.52
9/29/2024,285,190,0,163,7.6,1031,685,53.58
9/29/2024,356,119,0,160,9,1061,657,59
9/29/2024,275,180,120,162,10.4,830,765,76.24
9/29/2024,500,0,0,151,9,1033,655,69.84
10/24/2024,165,0,143.6,163.8,0,1005.6,900.9,14.4
10/24/2024,165,128.5,132.1,175.1,8.1,1005.8,746.6,19.42
10/24/2024,178,129.8,118.6,179.9,3.6,1007.3,746.8,20.73
10/24/2024,167.4,129.9,128.6,175.5,7.8,1006.3,746.6,14.94
10/24/2024,172.4,13.6,172.4,156.8,4.1,1006.3,856.4,21.29
10/24/2024,173.5,50.1,173.5,164.8,6.5,1006.2,793.5,23.08
10/24/2024,167,75.4,167,164,7.9,1007.3,770.1,15.52
10/24/2024,173.8,93.4,159.9,172.3,9.7,1007.2,746.6,15.82
10/24/2024,190.3,0,125.2,166.6,9.9,1079,798.9,12.55
10/24/2024,250,0,95.7,191.8,5.3,948.9,857.2,8.49
10/24/2024,213.5,0,174.2,159.2,11.7,1043.6,771.9,15.61
10/24/2024,194.7,0,100.5,170.2,7.5,998,901.8,12.18
10/24/2024,251.4,0,118.3,192.9,5.8,1043.6,754.3,11.98
10/13/2024,165,0,143.6,163.8,0,1005.6,900.9,16.88
10/13/2024,165,128.5,132.1,175.1,8.1,1005.8,746.6,33.09
10/13/2024,178,129.8,118.6,179.9,3.6,1007.3,746.8,34.24
10/13/2024,167.4,129.9,128.6,175.5,7.8,1006.3,746.6,31.81
10/13/2024,172.4,13.6,172.4,156.8,4.1,1006.3,856.4,29.75
10/13/2024,173.5,50.1,173.5,164.8,6.5,1006.2,793.5,33.01
10/13/2024,167,75.4,167,164,7.9,1007.3,770.1,32.9
10/13/2024,173.8,93.4,159.9,172.3,9.7,1007.2,746.6,29.55
10/13/2024,190.3,0,125.2,166.6,9.9,1079,798.9,19.42
10/13/2024,250,0,95.7,191.8,5.3,948.9,857.2,24.66
10/13/2024,213.5,0,174.2,159.2,11.7,1043.6,771.9,29.59
10/13/2024,194.7,0,100.5,170.2,7.5,998,901.8,24.28
10/13/2024,251.4,0,118.3,192.9,5.8,1043.6,754.3,20.73
9/29/2024,165,0,143.6,163.8,0,1005.6,900.9,26.2
9/29/2024,165,128.5,132.1,175.1,8.1,1005.8,746.6,46.39
9/29/2024,178,129.8,118.6,179.9,3.6,1007.3,746.8,39.16
9/29/2024,167.4,129.9,128.6,175.5,7.8,1006.3,746.6,41.2
9/29/2024,172.4,13.6,172.4,156.8,4.1,1006.3,856.4,33.69
9/29/2024,173.5,50.1,173.5,164.8,6.5,1006.2,793.5,38.2
9/29/2024,167,75.4,167,164,7.9,1007.3,770.1,41.41
9/29/2024,173.8,93.4,159.9,172.3,9.7,1007.2,746.6,37.81
9/29/2024,190.3,0,125.2,166.6,9.9,1079,798.9,24.85
9/29/2024,250,0,95.7,191.8,5.3,948.9,857.2,27.22
9/29/2024,213.5,0,174.2,159.2,11.7,1043.6,771.9,44.64
9/29/2024,194.7,0,100.5,170.2,7.5,998,901.8,37.27
9/29/2024,251.4,0,118.3,192.9,5.8,1043.6,754.3,33.27
9/1/2024,165,0,143.6,163.8,0,1005.6,900.9,36.56
9/1/2024,165,128.5,132.1,175.1,8.1,1005.8,746.6,53.72
9/1/2024,178,129.8,118.6,179.9,3.6,1007.3,746.8,48.59
9/1/2024,167.4,129.9,128.6,175.5,7.8,1006.3,746.6,51.72
9/1/2024,172.4,13.6,172.4,156.8,4.1,1006.3,856.4,35.85
9/1/2024,173.5,50.1,173.5,164.8,6.5,1006.2,793.5,53.77
9/1/2024,167,75.4,167,164,7.9,1007.3,770.1,53.46
9/1/2024,173.8,93.4,159.9,172.3,9.7,1007.2,746.6,48.99
9/1/2024,190.3,0,125.2,166.6,9.9,1079,798.9,31.72
9/1/2024,250,0,95.7,191.8,5.3,948.9,857.2,39.64
9/1/2024,213.5,0,174.2,159.2,11.7,1043.6,771.9,51.26
9/1/2024,194.7,0,100.5,170.2,7.5,998,901.8,43.39
9/1/2024,251.4,0,118.3,192.9,5.8,1043.6,754.3,39.27
7/19/2024,165,0,143.6,163.8,0,1005.6,900.9,37.96
7/19/2024,165,128.5,132.1,175.1,8.1,1005.8,746.6,55.02
7/19/2024,178,129.8,118.6,179.9,3.6,1007.3,746.8,49.99
7/19/2024,167.4,129.9,128.6,175.5,7.8,1006.3,746.6,53.66
7/19/2024,172.4,13.6,172.4,156.8,4.1,1006.3,856.4,37.68
7/19/2024,173.5,50.1,173.5,164.8,6.5,1006.2,793.5,56.06
7/19/2024,167,75.4,167,164,7.9,1007.3,770.1,56.81
7/19/2024,173.8,93.4,159.9,172.3,9.7,1007.2,746.6,50.94
7/19/2024,190.3,0,125.2,166.6,9.9,1079,798.9,33.56
7/19/2024,250,0,95.7,191.8,5.3,948.9,857.2,41.16
7/19/2024,213.5,0,174.2,159.2,11.7,1043.6,771.9,52.96
7/19/2024,194.7,0,100.5,170.2,7.5,998,901.8,44.28
7/19/2024,251.4,0,118.3,192.9,5.8,1043.6,754.3,40.15
9/29/2024,446,24,79,162,11.6,967,712,57.03
9/29/2024,446,24,79,162,11.6,967,712,44.42
9/29/2024,446,24,79,162,11.6,967,712,51.02
9/29/2024,446,24,79,162,10.3,967,712,53.39
10/24/2024,446,24,79,162,11.6,967,712,35.36
10/24/2024,446,24,79,162,11.6,967,712,25.02
10/24/2024,446,24,79,162,11.6,967,712,23.35
10/20/2024,446,24,79,162,11.6,967,712,52.01
10/20/2024,446,24,79,162,11.6,967,712,38.02
10/20/2024,446,24,79,162,11.6,967,712,39.3
9/1/2024,446,24,79,162,11.6,967,712,61.07
9/1/2024,446,24,79,162,11.6,967,712,56.14
9/1/2024,446,24,79,162,11.6,967,712,55.25
9/1/2024,446,24,79,162,10.3,967,712,54.77
9/29/2024,387,20,94,157,14.3,938,845,50.24
9/29/2024,387,20,94,157,13.9,938,845,46.68
9/29/2024,387,20,94,157,11.6,938,845,46.68
10/24/2024,387,20,94,157,14.3,938,845,22.75
10/24/2024,387,20,94,157,13.9,938,845,25.51
10/24/2024,387,20,94,157,11.6,938,845,34.77
10/20/2024,387,20,94,157,14.3,938,845,36.84
10/20/2024,387,20,94,157,13.9,938,845,45.9
10/20/2024,387,20,94,157,11.6,938,845,41.67
9/1/2024,387,20,94,157,14.3,938,845,56.34
9/1/2024,387,20,94,157,13.9,938,845,47.97
9/1/2024,387,20,94,157,11.6,938,845,61.46
9/29/2024,355,19,97,145,13.1,967,871,44.03
9/29/2024,355,19,97,145,12.3,967,871,55.45
9/29/2024,491,26,123,210,3.9,882,699,55.55
9/29/2024,491,26,123,201,3.9,822,699,57.92
10/24/2024,491,26,123,210,3.9,882,699,25.61
10/20/2024,491,26,123,210,3.9,882,699,33.49
9/1/2024,491,26,123,210,3.9,882,699,59.59
10/24/2024,491,26,123,201,3.9,822,699,29.55
10/20/2024,491,26,123,201,3.9,822,699,37.92
9/1/2024,491,26,123,201,3.9,822,699,61.86
9/29/2024,424,22,132,178,8.5,822,750,62.05
10/24/2024,424,22,132,178,8.5,882,750,32.01
9/29/2024,424,22,132,168,8.9,822,750,72.1
10/20/2024,424,22,132,178,8.5,822,750,39
9/1/2024,424,22,132,178,8.5,822,750,65.7
10/24/2024,424,22,132,168,8.9,822,750,32.11
10/20/2024,424,22,132,168,8.9,822,750,40.29
9/1/2024,424,22,132,168,8.9,822,750,74.36
9/29/2024,202,11,141,206,1.7,942,801,21.97
10/24/2024,202,11,141,206,1.7,942,801,9.85
10/20/2024,202,11,141,206,1.7,942,801,15.07
9/1/2024,202,11,141,206,1.7,942,801,23.25
9/29/2024,284,15,141,179,5.5,842,801,43.73
10/24/2024,284,15,141,179,5.5,842,801,13.4
10/20/2024,284,15,141,179,5.5,842,801,24.13
9/1/2024,284,15,141,179,5.5,842,801,44.52
9/29/2024,359,19,141,154,10.9,942,801,62.94
9/29/2024,359,19,141,154,10.9,942,801,59.49
10/24/2024,359,19,141,154,10.9,942,801,25.12
10/24/2024,359,19,141,154,10.9,942,801,23.64
10/20/2024,359,19,141,154,10.9,942,801,35.75
10/20/2024,359,19,141,154,10.9,942,801,38.61
9/1/2024,359,19,141,154,10.9,942,801,68.75
9/1/2024,359,19,141,154,10.9,942,801,66.78
9/29/2024,436,0,0,218,0,838.4,719.7,23.85
7/29/2024,289,0,0,192,0,913.2,895.3,32.07
10/24/2024,289,0,0,192,0,913.2,895.3,11.65
10/24/2024,393,0,0,192,0,940.6,785.6,19.2
7/29/2024,393,0,0,192,0,940.6,785.6,48.85
9/29/2024,393,0,0,192,0,940.6,785.6,39.6
9/29/2024,480,0,0,192,0,936.2,712.2,43.94
10/20/2024,480,0,0,192,0,936.2,712.2,34.57
7/29/2024,480,0,0,192,0,936.2,712.2,54.32
10/24/2024,480,0,0,192,0,936.2,712.2,24.4
10/24/2024,333,0,0,192,0,931.2,842.6,15.62
7/29/2024,255,0,0,192,0,889.8,945,21.86
10/20/2024,255,0,0,192,0,889.8,945,10.22
10/20/2024,289,0,0,192,0,913.2,895.3,14.6
9/29/2024,255,0,0,192,0,889.8,945,18.75
9/29/2024,333,0,0,192,0,931.2,842.6,31.97
10/20/2024,333,0,0,192,0,931.2,842.6,23.4
9/29/2024,289,0,0,192,0,913.2,895.3,25.57
7/29/2024,333,0,0,192,0,931.2,842.6,41.68
10/20/2024,393,0,0,192,0,940.6,785.6,27.74
10/24/2024,255,0,0,192,0,889.8,945,8.2
10/20/2024,158.8,238.2,0,185.7,0,1040.6,734.3,9.62
10/20/2024,239.6,359.4,0,185.7,0,941.6,664.3,25.42
10/20/2024,238.2,158.8,0,185.7,0,1040.6,734.3,15.69
9/29/2024,181.9,272.8,0,185.7,0,1012.4,714.3,27.94
9/29/2024,193.5,290.2,0,185.7,0,998.2,704.3,32.63
10/20/2024,255.5,170.3,0,185.7,0,1026.6,724.3,17.24
10/20/2024,272.8,181.9,0,185.7,0,1012.4,714.3,19.77
9/29/2024,239.6,359.4,0,185.7,0,941.6,664.3,39.44
9/29/2024,220.8,147.2,0,185.7,0,1055,744.3,25.75
9/29/2024,397,0,0,185.7,0,1040.6,734.3,33.08
10/20/2024,382.5,0,0,185.7,0,1047.8,739.3,24.07
10/20/2024,210.7,316.1,0,185.7,0,977,689.3,21.82
9/29/2024,158.8,238.2,0,185.7,0,1040.6,734.3,21.07
10/20/2024,295.8,0,0,185.7,0,1091.4,769.3,14.84
9/29/2024,255.5,170.3,0,185.7,0,1026.6,724.3,32.05
10/20/2024,203.5,135.7,0,185.7,0,1076.2,759.3,11.96
10/20/2024,397,0,0,185.7,0,1040.6,734.3,25.45
9/29/2024,381.4,0,0,185.7,0,1104.6,784.3,22.49
9/29/2024,295.8,0,0,185.7,0,1091.4,769.3,25.22
9/29/2024,228,342.1,0,185.7,0,955.8,674.3,39.7
10/20/2024,220.8,147.2,0,185.7,0,1055,744.3,13.09
9/29/2024,316.1,210.7,0,185.7,0,977,689.3,38.7
10/20/2024,135.7,203.5,0,185.7,0,1076.2,759.3,7.51
9/29/2024,238.1,0,0,185.7,0,1118.8,789.3,17.58
10/20/2024,339.2,0,0,185.7,0,1069.2,754.3,21.18
9/29/2024,135.7,203.5,0,185.7,0,1076.2,759.3,18.2
10/20/2024,193.5,290.2,0,185.7,0,998.2,704.3,17.2
9/29/2024,203.5,135.7,0,185.7,0,1076.2,759.3,22.63
10/20/2024,290.2,193.5,0,185.7,0,998.2,704.3,21.86
10/20/2024,181.9,272.8,0,185.7,0,1012.4,714.3,12.37
9/29/2024,170.3,155.5,0,185.7,0,1026.6,724.3,25.73
9/29/2024,210.7,316.1,0,185.7,0,977,689.3,37.81
10/20/2024,228,342.1,0,185.7,0,955.8,674.3,21.92
9/29/2024,290.2,193.5,0,185.7,0,998.2,704.3,33.04
10/20/2024,381.4,0,0,185.7,0,1104.6,784.3,14.54
9/29/2024,238.2,158.8,0,185.7,0,1040.6,734.3,26.91
10/20/2024,186.2,124.1,0,185.7,0,1083.4,764.3,8
9/29/2024,339.2,0,0,185.7,0,1069.2,754.3,31.9
10/20/2024,238.1,0,0,185.7,0,1118.8,789.3,10.34
9/29/2024,252.5,0,0,185.7,0,1111.6,784.3,19.77
9/29/2024,382.5,0,0,185.7,0,1047.8,739.3,37.44
10/20/2024,252.5,0,0,185.7,0,1111.6,784.3,11.48
10/20/2024,316.1,210.7,0,185.7,0,977,689.3,24.44
9/29/2024,186.2,124.1,0,185.7,0,1083.4,764.3,17.6
10/20/2024,170.3,155.5,0,185.7,0,1026.6,724.3,10.73
9/29/2024,272.8,181.9,0,185.7,0,1012.4,714.3,31.38
10/24/2024,339,0,0,197,0,968,781,13.22
10/20/2024,339,0,0,197,0,968,781,20.97
10/13/2024,339,0,0,197,0,968,781,27.04
9/29/2024,339,0,0,197,0,968,781,32.04
7/29/2024,339,0,0,197,0,968,781,35.17
4/30/2024,339,0,0,197,0,968,781,36.45
10/28/2023,339,0,0,197,0,968,781,38.89
10/24/2024,236,0,0,194,0,968,885,6.47
10/13/2024,236,0,0,194,0,968,885,12.84
9/29/2024,236,0,0,194,0,968,885,18.42
7/29/2024,236,0,0,194,0,968,885,21.95
4/30/2024,236,0,0,193,0,968,885,24.1
10/28/2023,236,0,0,193,0,968,885,25.08
10/13/2024,277,0,0,191,0,968,856,21.26
9/29/2024,277,0,0,191,0,968,856,25.97
10/24/2024,277,0,0,191,0,968,856,11.36
7/29/2024,277,0,0,191,0,968,856,31.25
4/30/2024,277,0,0,191,0,968,856,32.33
11/2/2023,277,0,0,191,0,968,856,33.7
10/24/2024,254,0,0,198,0,968,863,9.31
7/29/2024,254,0,0,198,0,968,863,26.94
4/30/2024,254,0,0,198,0,968,863,27.63
10/28/2023,254,0,0,198,0,968,863,29.79
4/30/2024,307,0,0,193,0,968,812,34.49
10/28/2023,307,0,0,193,0,968,812,36.15
10/24/2024,307,0,0,193,0,968,812,12.54
9/29/2024,307,0,0,193,0,968,812,27.53
7/29/2024,307,0,0,193,0,968,812,32.92
10/20/2024,236,0,0,193,0,968,885,9.99
10/20/2024,200,0,0,180,0,1125,845,7.84
9/29/2024,200,0,0,180,0,1125,845,12.25
10/20/2024,225,0,0,181,0,1113,833,11.17
9/29/2024,225,0,0,181,0,1113,833,17.34
10/20/2024,325,0,0,184,0,1063,783,17.54
9/29/2024,325,0,0,184,0,1063,783,30.57
10/20/2024,275,0,0,183,0,1088,808,14.2
9/29/2024,275,0,0,183,0,1088,808,24.5
10/20/2024,300,0,0,184,0,1075,795,15.58
9/29/2024,300,0,0,184,0,1075,795,26.85
10/20/2024,375,0,0,186,0,1038,758,26.06
9/29/2024,375,0,0,186,0,1038,758,38.21
9/29/2024,400,0,0,187,0,1025,745,43.7
10/20/2024,400,0,0,187,0,1025,745,30.14
10/20/2024,250,0,0,182,0,1100,820,12.73
9/29/2024,250,0,0,182,0,1100,820,20.87
10/20/2024,350,0,0,186,0,1050,770,20.28
9/29/2024,350,0,0,186,0,1050,770,34.29
10/20/2024,203.5,305.3,0,203.5,0,963.4,630,19.54
7/29/2024,250.2,166.8,0,203.5,0,977.6,694.1,47.71
7/29/2024,157,236,0,192,0,935.4,781.2,43.38
9/29/2024,141.3,212,0,203.5,0,971.8,748.5,29.89
10/24/2024,166.8,250.2,0,203.5,0,975.6,692.6,6.9
7/29/2024,122.6,183.9,0,203.5,0,958.2,800.1,33.19
10/24/2024,183.9,122.6,0,203.5,0,959.2,800,4.9
10/24/2024,102,153,0,192,0,887,942,4.57
7/29/2024,102,153,0,192,0,887,942,25.46
9/29/2024,122.6,183.9,0,203.5,0,958.2,800.1,24.29
9/29/2024,166.8,250.2,0,203.5,0,975.6,692.6,33.95
10/24/2024,200,133,0,192,0,965.4,806.2,11.41
9/29/2024,108.3,162.4,0,203.5,0,938.2,849,20.59
10/20/2024,305.3,203.5,0,203.5,0,965.4,631,25.89
7/29/2024,108.3,162.4,0,203.5,0,938.2,849,29.23
7/29/2024,116,173,0,192,0,909.8,891.9,31.02
10/20/2024,141.3,212,0,203.5,0,971.8,748.5,10.39
9/29/2024,157,236,0,192,0,935.4,781.2,33.66
9/29/2024,133,200,0,192,0,927.4,839.2,27.87
10/20/2024,250.2,166.8,0,203.5,0,977.6,694.1,19.35
10/20/2024,173,116,0,192,0,946.8,856.8,11.39
10/24/2024,192,288,0,192,0,929.8,716.1,12.79
9/29/2024,192,288,0,192,0,929.8,716.1,39.32
10/24/2024,153,102,0,192,0,888,943.1,4.78
10/24/2024,288,192,0,192,0,932,717.8,16.11
9/29/2024,305.3,203.5,0,203.5,0,965.4,631,43.38
10/20/2024,236,157,0,192,0,972.6,749.1,20.42
10/24/2024,173,116,0,192,0,946.8,856.8,6.94
10/20/2024,212,141.3,0,203.5,0,973.4,750,15.03
10/24/2024,236,157,0,192,0,972.6,749.1,13.57
7/29/2024,183.9,122.6,0,203.5,0,959.2,800,32.53
10/20/2024,166.8,250.2,0,203.5,0,975.6,692.6,15.75
10/20/2024,102,153,0,192,0,887,942,7.68
9/29/2024,288,192,0,192,0,932,717.8,38.8
9/29/2024,212,141.3,0,203.5,0,973.4,750,33
9/29/2024,102,153,0,192,0,887,942,17.28
9/29/2024,173,116,0,192,0,946.8,856.8,24.28
9/29/2024,183.9,122.6,0,203.5,0,959.2,800,24.05
7/29/2024,133,200,0,192,0,927.4,839.2,36.59
7/29/2024,192,288,0,192,0,929.8,716.1,50.73
10/20/2024,133,200,0,192,0,927.4,839.2,13.66
10/24/2024,305.3,203.5,0,203.5,0,965.4,631,14.14
7/29/2024,236,157,0,192,0,972.6,749.1,47.78
10/24/2024,108.3,162.4,0,203.5,0,938.2,849,2.33
10/20/2024,157,236,0,192,0,935.4,781.2,16.89
10/20/2024,288,192,0,192,0,932,717.8,23.52
10/24/2024,212,141.3,0,203.5,0,973.4,750,6.81
7/29/2024,212,141.3,0,203.5,0,973.4,750,39.7
9/29/2024,153,102,0,192,0,888,943.1,17.96
9/29/2024,236,157,0,192,0,972.6,749.1,32.88
9/29/2024,116,173,0,192,0,909.8,891.9,22.35
10/20/2024,183.9,122.6,0,203.5,0,959.2,800,10.79
10/20/2024,108.3,162.4,0,203.5,0,938.2,849,7.72
9/29/2024,203.5,305.3,0,203.5,0,963.4,630,41.68
10/24/2024,203.5,305.3,0,203.5,0,963.4,630,9.56
10/24/2024,133,200,0,192,0,927.4,839.2,6.88
7/29/2024,288,192,0,192,0,932,717.8,50.53
10/20/2024,200,133,0,192,0,965.4,806.2,17.17
9/29/2024,200,133,0,192,0,965.4,806.2,30.44
10/24/2024,250.2,166.8,0,203.5,0,977.6,694.1,9.73
10/24/2024,122.6,183.9,0,203.5,0,958.2,800.1,3.32
7/29/2024,153,102,0,192,0,888,943.1,26.32
7/29/2024,200,133,0,192,0,965.4,806.2,43.25
10/24/2024,116,173,0,192,0,909.8,891.9,6.28
7/29/2024,173,116,0,192,0,946.8,856.8,32.1
9/29/2024,250.2,166.8,0,203.5,0,977.6,694.1,36.96
7/29/2024,305.3,203.5,0,203.5,0,965.4,631,54.6
10/20/2024,192,288,0,192,0,929.8,716.1,21.48
10/24/2024,157,236,0,192,0,935.4,781.2,9.69
10/20/2024,153,102,0,192,0,888,943.1,8.37
7/29/2024,141.3,212,0,203.5,0,971.8,748.5,39.66
10/20/2024,116,173,0,192,0,909.8,891.9,10.09
10/24/2024,141.3,212,0,203.5,0,971.8,748.5,4.83
10/20/2024,122.6,183.9,0,203.5,0,958.2,800.1,10.35
7/29/2024,166.8,250.2,0,203.5,0,975.6,692.6,43.57
7/29/2024,203.5,305.3,0,203.5,0,963.4,630,51.86
10/24/2024,310,0,0,192,0,1012,830,11.85
10/20/2024,310,0,0,192,0,1012,830,17.24
9/29/2024,310,0,0,192,0,1012,830,27.83
7/29/2024,310,0,0,192,0,1012,830,35.76
6/29/2024,310,0,0,192,0,1012,830,38.7
10/24/2024,331,0,0,192,0,1025,821,14.31
10/20/2024,331,0,0,192,0,1025,821,17.44
9/29/2024,331,0,0,192,0,1025,821,31.74
7/29/2024,331,0,0,192,0,1025,821,37.91
6/29/2024,331,0,0,192,0,1025,821,39.38
10/24/2024,349,0,0,192,0,1056,809,15.87
10/20/2024,349,0,0,192,0,1056,809,9.01
9/29/2024,349,0,0,192,0,1056,809,33.61
7/29/2024,349,0,0,192,0,1056,809,40.66
6/29/2024,349,0,0,192,0,1056,809,40.86
10/20/2024,238,0,0,186,0,1119,789,12.05
9/29/2024,238,0,0,186,0,1119,789,17.54
10/20/2024,296,0,0,186,0,1090,769,18.91
9/29/2024,296,0,0,186,0,1090,769,25.18
10/20/2024,297,0,0,186,0,1040,734,30.96
9/29/2024,480,0,0,192,0,936,721,43.89
7/29/2024,480,0,0,192,0,936,721,54.28
9/29/2024,397,0,0,186,0,1040,734,36.94
10/20/2024,281,0,0,186,0,1104,774,14.5
9/29/2024,281,0,0,185,0,1104,774,22.44
10/26/2024,500,0,0,200,0,1125,613,12.64
10/24/2024,500,0,0,200,0,1125,613,26.06
10/20/2024,500,0,0,200,0,1125,613,33.21
10/13/2024,500,0,0,200,0,1125,613,36.94
9/29/2024,500,0,0,200,0,1125,613,44.09
10/20/2024,540,0,0,173,0,1125,613,52.61
10/13/2024,540,0,0,173,0,1125,613,59.76
9/29/2024,540,0,0,173,0,1125,613,67.31
7/29/2024,540,0,0,173,0,1125,613,69.66
4/30/2024,540,0,0,173,0,1125,613,71.62
1/31/2024,540,0,0,173,0,1125,613,74.17
10/20/2024,350,0,0,203,0,974,775,18.13
10/13/2024,350,0,0,203,0,974,775,22.53
9/29/2024,350,0,0,203,0,974,775,27.34
9/1/2024,350,0,0,203,0,974,775,29.98
7/29/2024,350,0,0,203,0,974,775,31.35
4/30/2024,350,0,0,203,0,974,775,32.72
10/26/2024,385,0,0,186,0,966,763,6.27
10/24/2024,385,0,0,186,0,966,763,14.7
10/20/2024,385,0,0,186,0,966,763,23.22
10/13/2024,385,0,0,186,0,966,763,27.92
9/29/2024,385,0,0,186,0,966,763,31.35
4/30/2024,331,0,0,192,0,978,825,39
11/2/2023,331,0,0,192,0,978,825,41.24
10/24/2024,349,0,0,192,0,1047,806,14.99
10/24/2024,331,0,0,192,0,978,825,13.52
10/20/2024,382,0,0,186,0,1047,739,24
9/29/2024,382,0,0,186,0,1047,739,37.42
10/20/2024,382,0,0,186,0,1111,784,11.47
9/29/2024,281,0,0,186,0,1104,774,22.44
10/20/2024,339,0,0,185,0,1069,754,21.16
9/29/2024,339,0,0,185,0,1069,754,31.84
10/20/2024,295,0,0,185,0,1069,769,14.8
9/29/2024,295,0,0,185,0,1069,769,25.18
9/29/2024,238,0,0,185,0,1118,789,17.54
10/20/2024,296,0,0,192,0,1085,765,14.2
9/29/2024,296,0,0,192,0,1085,765,21.65
7/29/2024,296,0,0,192,0,1085,765,29.39
10/24/2024,331,0,0,192,0,879,825,13.52
10/20/2024,331,0,0,192,0,978,825,16.26
9/29/2024,331,0,0,192,0,978,825,31.45
7/29/2024,331,0,0,192,0,978,825,37.23
10/20/2024,349,0,0,192,0,1047,806,18.13
9/29/2024,349,0,0,192,0,1047,806,32.72
7/29/2024,349,0,0,192,0,1047,806,39.49
4/30/2024,349,0,0,192,0,1047,806,41.05
11/2/2023,349,0,0,192,0,1047,806,42.13
10/13/2024,302,0,0,203,0,974,817,18.13
4/30/2024,302,0,0,203,0,974,817,26.74
4/30/2024,525,0,0,189,0,1125,613,61.92
7/29/2024,500,0,0,200,0,1125,613,47.22
4/30/2024,500,0,0,200,0,1125,613,51.04
1/31/2024,500,0,0,200,0,1125,613,55.16
10/24/2024,540,0,0,173,0,1125,613,41.64
10/20/2024,252,0,0,185,0,1111,784,13.71
9/29/2024,252,0,0,185,0,1111,784,19.69
9/29/2024,339,0,0,185,0,1060,754,31.65
10/24/2024,393,0,0,192,0,940,758,19.11
9/29/2024,393,0,0,192,0,940,758,39.58
7/29/2024,393,0,0,192,0,940,758,48.79
10/20/2024,382,0,0,185,0,1047,739,24
9/29/2024,382,0,0,185,0,1047,739,37.42
10/20/2024,252,0,0,186,0,1111,784,11.47
9/29/2024,252,0,0,185,0,1111,784,19.69
10/20/2024,310,0,0,192,0,970,850,14.99
9/29/2024,310,0,0,192,0,970,850,27.92
7/29/2024,310,0,0,192,0,970,850,34.68
4/30/2024,310,0,0,192,0,970,850,37.33
11/2/2023,310,0,0,192,0,970,850,38.11
10/24/2024,525,0,0,189,0,1125,613,33.8
10/20/2024,525,0,0,189,0,1125,613,42.42
10/13/2024,525,0,0,189,0,1125,613,48.4
9/29/2024,525,0,0,189,0,1125,613,55.94
7/29/2024,525,0,0,189,0,1125,613,58.78
1/31/2024,525,0,0,189,0,1125,613,67.11
10/13/2024,322,0,0,203,0,974,800,20.77
9/29/2024,322,0,0,203,0,974,800,25.18
4/30/2024,322,0,0,203,0,974,800,29.59
9/29/2024,302,0,0,203,0,974,817,21.75
9/29/2024,397,0,0,185,0,1040,734,39.09
10/24/2024,480,0,0,192,0,936,721,24.39
10/20/2024,522,0,0,146,0,896,896,50.51
9/29/2024,522,0,0,146,0,896,896,74.99
9/29/2024,273,105,82,210,9,904,680,37.17
9/29/2024,162,190,148,179,19,838,741,33.76
9/29/2024,154,144,112,220,10,923,658,16.5
9/29/2024,147,115,89,202,9,860,829,19.99
9/29/2024,152,178,139,168,18,944,695,36.35
9/29/2024,310,143,111,168,22,914,651,33.69
9/29/2024,144,0,175,158,18,943,844,15.42
9/29/2024,304,140,0,214,6,895,722,33.42
9/29/2024,374,0,0,190,7,1013,730,39.05
9/29/2024,159,149,116,175,15,953,720,27.68
9/29/2024,153,239,0,200,6,1002,684,26.86
9/29/2024,310,143,0,168,10,914,804,45.3
9/29/2024,305,0,100,196,10,959,705,30.12
9/29/2024,151,0,184,167,12,991,772,15.57
9/29/2024,142,167,130,174,11,883,785,44.61
9/29/2024,298,137,107,201,6,878,655,53.52
9/29/2024,321,164,0,190,5,870,774,57.21
9/29/2024,366,187,0,191,7,824,757,65.91
9/29/2024,280,129,100,172,9,825,805,52.82
9/29/2024,252,97,76,194,8,835,821,33.4
9/29/2024,165,0,150,182,12,1023,729,18.03
9/29/2024,156,243,0,180,11,1022,698,37.36
9/29/2024,160,188,146,203,11,829,710,32.84
9/29/2024,298,0,107,186,6,879,815,42.64
9/29/2024,318,0,126,210,6,861,737,40.06
9/29/2024,287,121,94,188,9,904,696,41.94
9/29/2024,326,166,0,174,9,882,790,61.23
9/29/2024,356,0,142,193,11,801,778,40.87
9/29/2024,132,207,161,179,5,867,736,33.3
9/29/2024,322,149,0,186,8,951,709,52.42
9/29/2024,164,0,200,181,13,849,846,15.09
9/29/2024,314,0,113,170,10,925,783,38.46
9/29/2024,321,0,128,182,11,870,780,37.26
9/29/2024,140,164,128,237,6,869,656,35.23
9/29/2024,288,121,0,177,7,908,829,42.13
9/29/2024,298,0,107,210,11,880,744,31.87
9/29/2024,265,111,86,195,6,833,790,41.54
9/29/2024,160,250,0,168,12,1049,688,39.45
9/29/2024,166,260,0,183,13,859,827,37.91
9/29/2024,276,116,90,180,9,870,768,44.28
9/29/2024,322,0,116,196,10,818,813,31.18
9/29/2024,149,139,109,193,6,892,780,23.69
9/29/2024,159,187,0,176,11,990,789,32.76
9/29/2024,261,100,78,201,9,864,761,32.4
9/29/2024,237,92,71,247,6,853,695,28.63
9/29/2024,313,0,113,178,8,1002,689,36.8
9/29/2024,155,183,0,193,9,1047,697,18.28
9/29/2024,146,230,0,202,3,827,872,33.06
9/29/2024,296,0,107,221,11,819,778,31.42
9/29/2024,133,210,0,196,3,949,795,31.03
9/29/2024,313,145,0,178,8,867,824,44.39
9/29/2024,152,0,112,184,8,992,816,12.18
9/29/2024,153,145,113,178,8,1002,689,25.56
9/29/2024,140,133,103,200,7,916,753,36.44
9/29/2024,149,236,0,176,13,847,893,32.96
9/29/2024,300,0,120,212,10,878,728,23.84
9/29/2024,153,145,113,178,8,867,824,26.23
9/29/2024,148,0,137,158,16,1002,830,17.95
9/29/2024,326,0,138,199,11,801,792,40.68
9/29/2024,153,145,0,178,8,1000,822,19.01
9/29/2024,262,111,86,195,5,895,733,33.72
9/29/2024,158,0,195,220,11,898,713,8.54
9/29/2024,151,0,185,167,16,1074,678,13.46
9/29/2024,273,0,90,199,11,931,762,32.24
9/29/2024,149,118,92,183,7,953,780,23.52
9/29/2024,143,169,143,191,8,967,643,29.72
9/29/2024,260,101,78,171,10,936,763,49.77
9/29/2024,313,161,0,178,10,917,759,52.44
9/29/2024,284,120,0,168,7,970,794,40.93
9/29/2024,336,0,0,182,3,986,817,44.86
9/29/2024,145,0,134,181,11,979,812,13.2
9/29/2024,150,237,0,174,12,1069,675,37.43
9/29/2024,144,170,133,192,8,814,805,29.87
9/29/2024,331,170,0,195,8,811,802,56.61
9/29/2024,155,0,143,193,9,1047,697,12.46
9/29/2024,155,183,0,193,9,877,868,23.79
9/29/2024,135,0,166,180,10,961,805,13.29
9/29/2024,266,112,87,178,10,910,745,39.42
9/29/2024,314,145,113,179,8,869,690,46.23
9/29/2024,313,145,0,127,8,1000,822,44.52
9/29/2024,146,173,0,182,3,986,817,23.74
9/29/2024,144,136,106,178,7,941,774,26.14
9/29/2024,148,0,182,181,15,839,884,15.52
9/29/2024,277,117,91,191,7,946,666,43.57
9/29/2024,298,0,107,164,13,953,784,35.86
9/29/2024,313,145,0,178,8,1002,689,41.05
9/29/2024,155,184,143,194,9,880,699,28.99
9/29/2024,289,134,0,195,6,924,760,46.24
9/29/2024,148,175,0,171,2,1000,828,26.92
9/29/2024,145,0,179,202,8,824,869,10.54
9/29/2024,313,0,0,178,8,1000,822,25.1
9/29/2024,136,162,126,172,10,923,764,29.07
9/29/2024,155,0,143,193,9,877,868,9.74
9/29/2024,255,99,77,189,6,919,749,33.8
9/29/2024,162,207,172,216,10,822,638,39.84
9/29/2024,136,196,98,199,6,847,783,26.97
9/29/2024,164,163,128,197,8,961,641,27.23
9/29/2024,162,214,164,202,10,820,680,30.65
9/29/2024,157,214,152,200,9,819,704,33.05
9/29/2024,149,153,194,192,8,935,623,24.58
9/29/2024,135,105,193,196,6,965,643,21.91
9/29/2024,159,209,161,201,7,848,669,30.88
9/29/2024,144,15,195,176,6,1021,709,15.34
9/29/2024,154,174,185,228,7,845,612,24.34
9/29/2024,167,187,195,185,7,898,636,23.89
9/29/2024,184,86,190,213,6,923,623,22.93
9/29/2024,156,178,187,221,7,854,614,29.41
9/29/2024,236.9,91.7,71.5,246.9,6,852.9,695.4,28.63
9/29/2024,313.3,0,113,178.5,8,1001.9,688.7,36.8
9/29/2024,154.8,183.4,0,193.3,9.1,1047.4,696.7,18.29
9/29/2024,145.9,230.5,0,202.5,3.4,827,871.8,32.72
9/29/2024,296,0,106.7,221.4,10.5,819.2,778.4,31.42
9/29/2024,133.1,210.2,0,195.7,3.1,949.4,795.3,28.94
9/29/2024,313.3,145,0,178.5,8,867.2,824,40.93
9/29/2024,151.6,0,111.9,184.4,7.9,992,815.9,12.18
9/29/2024,153.1,145,113,178.5,8,1001.9,688.7,25.56
9/29/2024,139.9,132.6,103.3,200.3,7.4,916,753.4,36.44
9/29/2024,149.5,236,0,175.8,12.6,846.8,892.7,32.96
9/29/2024,299.8,0,119.8,211.5,9.9,878.2,727.6,23.84
9/29/2024,153.1,145,113,178.5,8,867.2,824,26.23
9/29/2024,148.1,0,136.6,158.1,16.1,1001.8,830.1,17.96
9/29/2024,326.5,0,137.9,199,10.8,801.1,792.5,38.63
9/29/2024,152.7,144.7,0,178.1,8,999.7,822.2,19.01
9/29/2024,261.9,110.5,86.1,195.4,5,895.2,732.6,33.72
9/29/2024,158.4,0,194.9,219.7,11,897.7,712.9,8.54
9/29/2024,150.7,0,185.3,166.7,15.6,1074.5,678,13.46
9/29/2024,272.6,0,89.6,198.7,10.6,931.3,762.2,32.25
9/29/2024,149,117.6,91.7,182.9,7.1,953.4,780.3,23.52
9/29/2024,143,169.4,142.7,190.7,8.4,967.4,643.5,29.73
9/29/2024,259.9,100.6,78.4,170.6,10.4,935.7,762.9,49.77
9/29/2024,312.9,160.5,0,177.6,9.6,916.6,759.5,52.45
9/29/2024,284,119.7,0,168.3,7.2,970.4,794.2,40.93
9/29/2024,336.5,0,0,181.9,3.4,985.8,816.8,44.87
9/29/2024,144.8,0,133.6,180.8,11.1,979.5,811.5,13.2
9/29/2024,150,236.8,0,173.8,11.9,1069.3,674.8,37.43
9/29/2024,143.7,170.2,132.6,191.6,8.5,814.1,805.3,29.87
9/29/2024,330.5,169.6,0,194.9,8.1,811,802.3,56.62
9/29/2024,154.8,0,142.8,193.3,9.1,1047.4,696.7,12.46
9/29/2024,154.8,183.4,0,193.3,9.1,877.2,867.7,23.79
9/29/2024,134.7,0,165.7,180.2,10,961,804.9,13.29
9/29/2024,266.2,112.3,87.5,177.9,10.4,909.7,744.5,39.42
9/29/2024,314,145.3,113.2,178.9,8,869.1,690.2,46.23
9/29/2024,312.7,144.7,0,127.3,8,999.7,822.2,44.52
9/29/2024,145.7,172.6,0,181.9,3.4,985.8,816.8,23.74
9/29/2024,143.8,136.3,106.2,178.1,7.5,941.5,774.3,26.15
9/29/2024,148.1,0,182.1,181.4,15,838.9,884.3,15.53
9/29/2024,277,116.8,91,190.6,7,946.5,665.6,43.58
9/29/2024,298.1,0,107.5,163.6,12.8,953.2,784,35.87
9/29/2024,313.3,145,0,178.5,8,1001.9,688.7,41.05
9/29/2024,155.2,183.9,143.2,193.8,9.2,879.6,698.5,28.99
9/29/2024,289,133.7,0,194.9,5.5,924.1,760.1,46.25
9/29/2024,147.8,175.1,0,171.2,2.2,1000,828.5,26.92
9/29/2024,145.4,0,178.9,201.7,7.8,824,868.7,10.54
9/29/2024,312.7,0,0,178.1,8,999.7,822.2,25.1
9/29/2024,136.4,161.6,125.8,171.6,10.4,922.6,764.4,29.07
9/29/2024,154.8,0,142.8,193.3,9.1,877.2,867.7,9.74
9/29/2024,255.3,98.8,77,188.6,6.5,919,749.3,33.8
9/29/2024,272.8,105.1,81.8,209.7,9,904,679.7,37.17
9/29/2024,162,190.1,148.1,178.8,18.8,838.1,741.4,33.76
9/29/2024,153.6,144.2,112.3,220.1,10.1,923.2,657.9,16.5
9/29/2024,146.5,114.6,89.3,201.9,8.8,860,829.5,19.99
9/29/2024,151.8,178.1,138.7,167.5,18.3,944,694.6,36.35
9/29/2024,309.9,142.8,111.2,167.8,22.1,913.9,651.2,38.22
9/29/2024,143.6,0,174.9,158.4,17.9,942.7,844.5,15.42
9/29/2024,303.6,139.9,0,213.5,6.2,895.5,722.5,33.42
9/29/2024,374.3,0,0,190.2,6.7,1013.2,730.4,39.06
9/29/2024,158.6,148.9,116,175.1,15,953.3,719.7,27.68
9/29/2024,152.6,238.7,0,200,6.3,1001.8,683.9,26.86
9/29/2024,310,142.8,0,167.9,10,914.3,804,45.3
9/29/2024,304.8,0,99.6,196,9.8,959.4,705.2,30.12
9/29/2024,150.9,0,183.9,166.6,11.6,991.2,772.2,15.57
9/29/2024,141.9,166.6,129.7,173.5,10.9,882.6,785.3,44.61
9/29/2024,297.8,137.2,106.9,201.3,6,878.4,655.3,53.52
9/29/2024,321.3,164.2,0,190.5,4.6,870,774,57.22
9/29/2024,366,187,0,191.3,6.6,824.3,756.9,65.91
9/29/2024,279.8,128.9,100.4,172.4,9.5,825.1,804.9,52.83
9/29/2024,252.1,97.1,75.6,193.8,8.3,835.5,821.4,33.4
9/29/2024,164.6,0,150.4,181.6,11.7,1023.3,728.9,18.03
9/29/2024,155.6,243.5,0,180.3,10.7,1022,697.7,37.36
9/29/2024,160.2,188,146.4,203.2,11.3,828.7,709.7,35.31
9/29/2024,298.1,0,107,186.4,6.1,879,815.2,42.64
9/29/2024,317.9,0,126.5,209.7,5.7,860.5,736.6,40.06
9/29/2024,287.3,120.5,93.9,187.6,9.2,904.4,695.9,43.8
9/29/2024,325.6,166.4,0,174,8.9,881.6,790,61.24
9/29/2024,355.9,0,141.6,193.3,11,801.4,778.4,40.87
9/29/2024,132,206.5,160.9,178.9,5.5,866.9,735.6,33.31
9/29/2024,322.5,148.6,0,185.8,8.5,951,709.5,52.43
9/29/2024,164.2,0,200.1,181.2,12.6,849.3,846,15.09
9/29/2024,313.8,0,112.6,169.9,10.1,925.3,782.9,38.46
9/29/2024,321.4,0,127.9,182.5,11.5,870.1,779.7,37.27
9/29/2024,139.7,163.9,127.7,236.7,5.8,868.6,655.6,35.23
9/29/2024,288.4,121,0,177.4,7,907.9,829.5,42.14
9/29/2024,298.2,0,107,209.7,11.1,879.6,744.2,31.88
9/29/2024,264.5,111,86.5,195.5,5.9,832.6,790.4,41.54
9/29/2024,159.8,250,0,168.4,12.2,1049.3,688.2,39.46
9/29/2024,166,259.7,0,183.2,12.7,858.8,826.8,37.92
9/29/2024,276.4,116,90.3,179.6,8.9,870.1,768.3,44.28
9/29/2024,322.2,0,115.6,196,10.4,817.9,813.4,31.18
9/29/2024,148.5,139.4,108.6,192.7,6.1,892.4,780,23.7
9/29/2024,159.1,186.7,0,175.6,11.3,989.6,788.9,32.77
9/29/2024,260.9,100.5,78.3,200.6,8.6,864.5,761.5,32.4